staircase.thisTrialN,staircase.stepSize,staircase.intensity,thisRow.t,notes,trial.started,fixation.started,fixation.stopped,grating.started,key_resp.started,grating.stopped,trial.stopped,CorrAns,tilt,key_resp.corr,staircase.response,key_resp.rt,participant,session,date,expName,psychopyVersion,frameRate,expStart,
0,2,10.0,0.033953400095924735,,0.0175284999422729,0.033953400095924735,0.5150085999630392,0.5150085999630392,0.5150085999630392,0.8165748999454081,1.168982099974528,right,10.0,1,1,0.5258937999606133,Ashish,001,2024-09-11_22h51.35.404,Adaptive Staircase Procedure,2024.2.1post4,59.66426908803034,2024-09-11 22h51.55.295149 +0530,
1,1,8.0,1.1814131999853998,,1.1692379999440163,1.1814131999853998,1.6828237001318485,1.6828237001318485,1.6828237001318485,1.982960500055924,2.2663839000742882,left,-8.0,0,0,0.5684990000445396,Ashish,001,2024-09-11_22h51.35.404,Adaptive Staircase Procedure,2024.2.1post4,59.66426908803034,2024-09-11 22h51.55.295149 +0530,
2,1,9.0,2.282108100131154,,2.266570100095123,2.282108100131154,2.7660527999978513,2.7660527999978513,2.7660527999978513,3.0658442000858486,3.316881800070405,left,-9.0,1,1,0.5465205998625606,Ashish,001,2024-09-11_22h51.35.404,Adaptive Staircase Procedure,2024.2.1post4,59.66426908803034,2024-09-11 22h51.55.295149 +0530,
3,1,9.0,3.333026400068775,,3.31706769997254,3.333026400068775,3.816293500130996,3.816293500130996,3.816293500130996,4.116071800002828,4.1832014000974596,left,-9.0,1,1,0.3514655001927167,Ashish,001,2024-09-11_22h51.35.404,Adaptive Staircase Procedure,2024.2.1post4,59.66426908803034,2024-09-11 22h51.55.295149 +0530,
4,1,9.0,4.199114399962127,,4.18338040006347,4.199114399962127,4.682337400037795,4.682337400037795,4.682337400037795,4.982588600134477,5.200446200091392,right,9.0,1,1,0.510187900159508,Ashish,001,2024-09-11_22h51.35.404,Adaptive Staircase Procedure,2024.2.1post4,59.66426908803034,2024-09-11 22h51.55.295149 +0530,
5,1,8.0,5.216101200086996,,5.200682899914682,5.216101200086996,5.715559999924153,5.715559999924153,5.715559999924153,6.016038700006902,6.133951300056651,right,8.0,1,1,0.41192089999094605,Ashish,001,2024-09-11_22h51.35.404,Adaptive Staircase Procedure,2024.2.1post4,59.66426908803034,2024-09-11 22h51.55.295149 +0530,
6,1,8.0,6.149250700138509,,6.13413090002723,6.149250700138509,6.6488888000603765,6.6488888000603765,6.6488888000603765,6.9490167000330985,7.083808500086889,right,8.0,1,1,0.4289957000873983,Ashish,001,2024-09-11_22h51.35.404,Adaptive Staircase Procedure,2024.2.1post4,59.66426908803034,2024-09-11 22h51.55.295149 +0530,
7,1,8.0,7.099742399994284,,7.083986300043762,7.099742399994284,7.582330100005493,7.582330100005493,7.582330100005493,7.882776400074363,7.983192400075495,left,-8.0,1,1,0.38779549999162555,Ashish,001,2024-09-11_22h51.35.404,Adaptive Staircase Procedure,2024.2.1post4,59.66426908803034,2024-09-11 22h51.55.295149 +0530,
8,1,7.0,7.999322599964216,,7.9833760999608785,7.999322599964216,8.482673099962994,8.482673099962994,8.482673099962994,8.782274400116876,8.90038160001859,left,-7.0,1,1,0.4161753000225872,Ashish,001,2024-09-11_22h51.35.404,Adaptive Staircase Procedure,2024.2.1post4,59.66426908803034,2024-09-11 22h51.55.295149 +0530,
9,1,7.0,8.915899600135162,,8.90055950009264,8.915899600135162,9.415765200043097,9.415765200043097,9.415765200043097,9.715901999967173,9.917105700122193,right,7.0,1,1,0.4964394001290202,Ashish,001,2024-09-11_22h51.35.404,Adaptive Staircase Procedure,2024.2.1post4,59.66426908803034,2024-09-11 22h51.55.295149 +0530,
10,1,7.0,9.9324096001219,,9.917337000137195,9.9324096001219,10.432618800085038,10.432618800085038,10.432618800085038,10.732410500058904,10.916388100013137,right,7.0,1,1,0.48053019982762635,Ashish,001,2024-09-11_22h51.35.404,Adaptive Staircase Procedure,2024.2.1post4,59.66426908803034,2024-09-11 22h51.55.295149 +0530,
11,1,6.0,10.932236399967223,,10.916584999999031,10.932236399967223,11.415921400068328,11.415921400068328,11.415921400068328,11.71633159997873,11.867153899976984,left,-6.0,1,1,0.4422015999443829,Ashish,001,2024-09-11_22h51.35.404,Adaptive Staircase Procedure,2024.2.1post4,59.66426908803034,2024-09-11 22h51.55.295149 +0530,
12,1,6.0,11.883021099958569,,11.86741070006974,11.883021099958569,12.382969999918714,12.382969999918714,12.382969999918714,12.682346899993718,12.816373199922964,left,-6.0,1,1,0.4181003998965025,Ashish,001,2024-09-11_22h51.35.404,Adaptive Staircase Procedure,2024.2.1post4,59.66426908803034,2024-09-11 22h51.55.295149 +0530,
13,1,6.0,12.832553500076756,,12.816555199911818,12.832553500076756,13.315487999934703,13.315487999934703,13.315487999934703,13.6162080001086,13.733430000022054,left,-6.0,1,1,0.4093204999808222,Ashish,001,2024-09-11_22h51.35.404,Adaptive Staircase Procedure,2024.2.1post4,59.66426908803034,2024-09-11 22h51.55.295149 +0530,
14,1,5.0,13.748892300063744,,13.733610600000247,13.748892300063744,14.248891100054607,14.248891100054607,14.248891100054607,14.548967499984428,14.716388500062749,right,5.0,1,1,0.46421039989218116,Ashish,001,2024-09-11_22h51.35.404,Adaptive Staircase Procedure,2024.2.1post4,59.66426908803034,2024-09-11 22h51.55.295149 +0530,
15,1,5.0,14.732295599998906,,14.716566700022668,14.732295599998906,15.215549200074747,15.215549200074747,15.215549200074747,15.515735799912363,15.700043099932373,right,5.0,1,1,0.47078280011191964,Ashish,001,2024-09-11_22h51.35.404,Adaptive Staircase Procedure,2024.2.1post4,59.66426908803034,2024-09-11 22h51.55.295149 +0530,
16,1,5.0,15.715652300044894,,15.700222100131214,15.715652300044894,16.19933610013686,16.19933610013686,16.19933610013686,16.4985875999555,16.650374500080943,left,-5.0,1,1,0.44628100004047155,Ashish,001,2024-09-11_22h51.35.404,Adaptive Staircase Procedure,2024.2.1post4,59.66426908803034,2024-09-11 22h51.55.295149 +0530,
17,1,4.0,16.66530460002832,,16.650557100074366,16.66530460002832,17.165621400112286,17.165621400112286,17.165621400112286,17.465855299960822,17.600583699997514,left,-4.0,1,1,0.433465100126341,Ashish,001,2024-09-11_22h51.35.404,Adaptive Staircase Procedure,2024.2.1post4,59.66426908803034,2024-09-11 22h51.55.295149 +0530,
18,1,4.0,17.615489300107583,,17.600762099958956,17.615489300107583,18.11522729997523,18.11522729997523,18.11522729997523,18.415600100066513,18.566243099980056,right,4.0,1,1,0.4430319999810308,Ashish,001,2024-09-11_22h51.35.404,Adaptive Staircase Procedure,2024.2.1post4,59.66426908803034,2024-09-11 22h51.55.295149 +0530,
19,0.5,4.0,18.58244809997268,,18.566421600058675,18.58244809997268,19.065823799930513,19.065823799930513,19.065823799930513,19.36546709993854,19.649722000118345,left,-4.0,0,0,0.5780905999708921,Ashish,001,2024-09-11_22h51.35.404,Adaptive Staircase Procedure,2024.2.1post4,59.66426908803034,2024-09-11 22h51.55.295149 +0530,
20,0.5,4.5,19.665295799961314,,19.649904899997637,19.665295799961314,20.148665700107813,20.148665700107813,20.148665700107813,20.448700699955225,20.616906499955803,right,4.5,0,0,0.4637170999776572,Ashish,001,2024-09-11_22h51.35.404,Adaptive Staircase Procedure,2024.2.1post4,59.66426908803034,2024-09-11 22h51.55.295149 +0530,
21,0.5,5.0,20.631947099929675,,20.617130799917504,20.631947099929675,21.13281930005178,21.13281930005178,21.13281930005178,21.432507399935275,21.88268949999474,right,5.0,1,1,0.7406095000915229,Ashish,001,2024-09-11_22h51.35.404,Adaptive Staircase Procedure,2024.2.1post4,59.66426908803034,2024-09-11 22h51.55.295149 +0530,
22,0.5,5.0,21.898782700067386,,21.882893400033936,21.898782700067386,22.38262930000201,22.38262930000201,22.38262930000201,22.682529899990186,22.800246099941432,right,5.0,1,1,0.40172840002924204,Ashish,001,2024-09-11_22h51.35.404,Adaptive Staircase Procedure,2024.2.1post4,59.66426908803034,2024-09-11 22h51.55.295149 +0530,
23,0.5,5.0,22.815860900096595,,22.800430600065738,22.815860900096595,23.315956100123003,23.315956100123003,23.315956100123003,23.615672199986875,23.7496255999431,left,-5.0,1,1,0.4243679998908192,Ashish,001,2024-09-11_22h51.35.404,Adaptive Staircase Procedure,2024.2.1post4,59.66426908803034,2024-09-11 22h51.55.295149 +0530,
24,0.5,4.5,23.765721200034022,,23.749825600069016,23.765721200034022,24.24959659995511,24.24959659995511,24.24959659995511,24.566013700095937,24.68310309993103,right,4.5,0,0,0.4166422998532653,Ashish,001,2024-09-11_22h51.35.404,Adaptive Staircase Procedure,2024.2.1post4,59.66426908803034,2024-09-11 22h51.55.295149 +0530,
25,0.5,5.0,24.698698200052604,,24.68328780005686,24.698698200052604,25.182187899947166,25.182187899947166,25.182187899947166,25.482798600103706,25.782967200037092,left,-5.0,1,1,0.5932034999132156,Ashish,001,2024-09-11_22h51.35.404,Adaptive Staircase Procedure,2024.2.1post4,59.66426908803034,2024-09-11 22h51.55.295149 +0530,
26,0.5,5.0,25.798573800129816,,25.783148300135508,25.798573800129816,26.298543400131166,26.298543400131166,26.298543400131166,26.598928899969906,26.766661999979988,left,-5.0,1,1,0.4556474999990314,Ashish,001,2024-09-11_22h51.35.404,Adaptive Staircase Procedure,2024.2.1post4,59.66426908803034,2024-09-11 22h51.55.295149 +0530,
27,0.5,5.0,26.782047800021246,,26.766844199970365,26.782047800021246,27.282314900076017,27.282314900076017,27.282314900076017,27.581942999968305,27.86599690001458,left,-5.0,1,1,0.5756656997837126,Ashish,001,2024-09-11_22h51.35.404,Adaptive Staircase Procedure,2024.2.1post4,59.66426908803034,2024-09-11 22h51.55.295149 +0530,
28,0.5,4.5,27.88214490003884,,27.86618040013127,27.88214490003884,28.365127299912274,28.365127299912274,28.365127299912274,28.6656224001199,28.76656790007837,left,-4.5,1,1,0.39186490001156926,Ashish,001,2024-09-11_22h51.35.404,Adaptive Staircase Procedure,2024.2.1post4,59.66426908803034,2024-09-11 22h51.55.295149 +0530,
29,0.5,4.5,28.782268000068143,,28.766745700035244,28.782268000068143,29.282068599946797,29.282068599946797,29.282068599946797,29.582083699991927,29.716010899981484,left,-4.5,1,1,0.4274987999815494,Ashish,001,2024-09-11_22h51.35.404,Adaptive Staircase Procedure,2024.2.1post4,59.66426908803034,2024-09-11 22h51.55.295149 +0530,
30,0.5,4.5,29.731886599911377,,29.71618920005858,29.731886599911377,30.21535519999452,30.21535519999452,30.21535519999452,30.515178400091827,30.58301219996065,left,-4.5,1,1,0.3552004999946803,Ashish,001,2024-09-11_22h51.35.404,Adaptive Staircase Procedure,2024.2.1post4,59.66426908803034,2024-09-11 22h51.55.295149 +0530,
31,0.5,4.0,30.598929800093174,,30.58319599996321,30.598929800093174,31.08224710007198,31.08224710007198,31.08224710007198,31.382309400010854,31.632613399997354,right,4.0,1,1,0.5413532999809831,Ashish,001,2024-09-11_22h51.35.404,Adaptive Staircase Procedure,2024.2.1post4,59.66426908803034,2024-09-11 22h51.55.295149 +0530,
32,0.5,4.0,31.648709299974144,,31.63281590002589,31.648709299974144,32.13177140010521,32.13177140010521,32.13177140010521,32.433973599923775,32.48265979997814,right,4.0,1,1,0.33986509987153113,Ashish,001,2024-09-11_22h51.35.404,Adaptive Staircase Procedure,2024.2.1post4,59.66426908803034,2024-09-11 22h51.55.295149 +0530,
33,0.5,4.0,32.498864100081846,,32.482839700067416,32.498864100081846,32.981911400100216,32.981911400100216,32.981911400100216,33.28225739998743,33.433126900112256,left,-4.0,1,1,0.44176320009864867,Ashish,001,2024-09-11_22h51.35.404,Adaptive Staircase Procedure,2024.2.1post4,59.66426908803034,2024-09-11 22h51.55.295149 +0530,
34,0.5,3.5,33.44856430008076,,33.433317800052464,33.44856430008076,33.94912780006416,33.94912780006416,33.94912780006416,34.24906810000539,34.5495033999905,right,3.5,1,1,0.5964771998114884,Ashish,001,2024-09-11_22h51.35.404,Adaptive Staircase Procedure,2024.2.1post4,59.66426908803034,2024-09-11 22h51.55.295149 +0530,
35,0.5,3.5,34.56518999999389,,34.549746700096875,34.56518999999389,35.06526229996234,35.06526229996234,35.06526229996234,35.364929100032896,35.583269600057974,left,-3.5,1,1,0.5115028999280185,Ashish,001,2024-09-11_22h51.35.404,Adaptive Staircase Procedure,2024.2.1post4,59.66426908803034,2024-09-11 22h51.55.295149 +0530,
36,0.5,3.5,35.59840440005064,,35.583446900127456,35.59840440005064,36.09841870004311,36.09841870004311,36.09841870004311,36.398969900095835,36.4662172999233,left,-3.5,1,1,0.36289170011878014,Ashish,001,2024-09-11_22h51.35.404,Adaptive Staircase Procedure,2024.2.1post4,59.66426908803034,2024-09-11 22h51.55.295149 +0530,
37,0.5,3.0,36.48156809993088,,36.466395100113004,36.48156809993088,36.98214350012131,36.98214350012131,36.98214350012131,37.281848000129685,37.582979399943724,right,3.0,1,1,0.585026300046593,Ashish,001,2024-09-11_22h51.35.404,Adaptive Staircase Procedure,2024.2.1post4,59.66426908803034,2024-09-11 22h51.55.295149 +0530,
38,0.5,3.0,37.5985626000911,,37.583213099977,37.5985626000911,38.098655600100756,38.098655600100756,38.098655600100756,38.398903999943286,38.53250420000404,right,3.0,1,1,0.4175342000089586,Ashish,001,2024-09-11_22h51.35.404,Adaptive Staircase Procedure,2024.2.1post4,59.66426908803034,2024-09-11 22h51.55.295149 +0530,
39,0.5,3.0,38.548354800092056,,38.53268350008875,38.548354800092056,39.0322231000755,39.0322231000755,39.0322231000755,39.33238109992817,39.599308900069445,left,-3.0,1,1,0.559980200137943,Ashish,001,2024-09-11_22h51.35.404,Adaptive Staircase Procedure,2024.2.1post4,59.66426908803034,2024-09-11 22h51.55.295149 +0530,
40,0.5,2.5,39.61535460012965,,39.59949199995026,39.61535460012965,40.11543840006925,40.11543840006925,40.11543840006925,40.41521740006283,40.600454099942,right,2.5,1,1,0.48231450002640486,Ashish,001,2024-09-11_22h51.35.404,Adaptive Staircase Procedure,2024.2.1post4,59.66426908803034,2024-09-11 22h51.55.295149 +0530,
41,0.5,2.5,40.61479409993626,,40.60064149997197,40.61479409993626,41.114974699914455,41.114974699914455,41.114974699914455,41.415265900082886,41.59923480008729,right,2.5,1,1,0.4678970999084413,Ashish,001,2024-09-11_22h51.35.404,Adaptive Staircase Procedure,2024.2.1post4,59.66426908803034,2024-09-11 22h51.55.295149 +0530,
42,0.5,2.5,41.61555980006233,,41.59941720007919,41.61555980006233,42.11515840003267,42.11515840003267,42.11515840003267,42.4153978000395,42.549353800015524,right,2.5,1,1,0.4183096999768168,Ashish,001,2024-09-11_22h51.35.404,Adaptive Staircase Procedure,2024.2.1post4,59.66426908803034,2024-09-11 22h51.55.295149 +0530,
43,0.5,2.0,42.56517000007443,,42.54958559991792,42.56517000007443,43.04843940003775,43.04843940003775,43.04843940003775,43.348728799959645,43.44966339995153,right,2.0,1,1,0.3864558001514524,Ashish,001,2024-09-11_22h51.35.404,Adaptive Staircase Procedure,2024.2.1post4,59.66426908803034,2024-09-11 22h51.55.295149 +0530,
44,0.5,2.0,43.464875699952245,,43.44984299992211,43.464875699952245,43.948616800131276,43.948616800131276,43.948616800131276,44.248357800068334,44.48235800000839,right,2.0,1,1,0.5268038001377136,Ashish,001,2024-09-11_22h51.35.404,Adaptive Staircase Procedure,2024.2.1post4,59.66426908803034,2024-09-11 22h51.55.295149 +0530,
45,0.5,2.0,44.49816119996831,,44.48253950010985,44.49816119996831,44.98212569998577,44.98212569998577,44.98212569998577,45.281668399926275,45.39913620008156,right,2.0,1,1,0.40382890007458627,Ashish,001,2024-09-11_22h51.35.404,Adaptive Staircase Procedure,2024.2.1post4,59.66426908803034,2024-09-11 22h51.55.295149 +0530,
46,0.5,1.5,45.41556610004045,,45.39932970004156,45.41556610004045,45.898532799910754,45.898532799910754,45.898532799910754,46.19844350009225,46.299239499960095,right,1.5,1,1,0.38944709999486804,Ashish,001,2024-09-11_22h51.35.404,Adaptive Staircase Procedure,2024.2.1post4,59.66426908803034,2024-09-11 22h51.55.295149 +0530,
47,0.5,1.5,46.31478159991093,,46.29942060005851,46.31478159991093,46.799099900061265,46.799099900061265,46.799099900061265,47.098217400023714,47.28282910003327,right,1.5,1,1,0.4768137999344617,Ashish,001,2024-09-11_22h51.35.404,Adaptive Staircase Procedure,2024.2.1post4,59.66426908803034,2024-09-11 22h51.55.295149 +0530,
48,0.5,1.5,47.29845130001195,,47.283016100060195,47.29845130001195,47.798738500103354,47.798738500103354,47.798738500103354,48.09882290009409,48.249539700103924,right,1.5,1,1,0.44942770013585687,Ashish,001,2024-09-11_22h51.35.404,Adaptive Staircase Procedure,2024.2.1post4,59.66426908803034,2024-09-11 22h51.55.295149 +0530,
49,0.5,1.0,48.2654897000175,,48.24972760002129,48.2654897000175,48.765064700040966,48.765064700040966,48.765064700040966,49.06498029991053,49.38288310007192,right,1.0,0,0,0.6132515000645071,Ashish,001,2024-09-11_22h51.35.404,Adaptive Staircase Procedure,2024.2.1post4,59.66426908803034,2024-09-11 22h51.55.295149 +0530,
50,0.5,1.5,49.398145500104874,,49.38306550006382,49.398145500104874,49.89830240001902,49.89830240001902,49.89830240001902,50.19842980010435,50.44999950006604,right,1.5,1,1,0.5506380000151694,Ashish,001,2024-09-11_22h51.35.404,Adaptive Staircase Procedure,2024.2.1post4,59.66426908803034,2024-09-11 22h51.55.295149 +0530,
51,0.5,1.5,50.465053000021726,,50.450181500054896,50.465053000021726,50.964705399936065,50.964705399936065,50.964705399936065,51.264787500025705,51.5160509000998,left,-1.5,1,1,0.547275599790737,Ashish,001,2024-09-11_22h51.35.404,Adaptive Staircase Procedure,2024.2.1post4,59.66426908803034,2024-09-11 22h51.55.295149 +0530,
52,0.5,1.5,51.53181770001538,,51.516234799986705,51.53181770001538,52.01534610008821,52.01534610008821,52.01534610008821,52.31541540008038,52.58236959995702,right,1.5,1,1,0.5603259999770671,Ashish,001,2024-09-11_22h51.35.404,Adaptive Staircase Procedure,2024.2.1post4,59.66426908803034,2024-09-11 22h51.55.295149 +0530,
53,0.5,1.0,52.5983190999832,,52.5825606000144,52.5983190999832,53.081736699910834,53.081736699910834,53.081736699910834,53.381676899967715,53.64916840009391,right,1.0,1,1,0.5618336000479758,Ashish,001,2024-09-11_22h51.35.404,Adaptive Staircase Procedure,2024.2.1post4,59.66426908803034,2024-09-11 22h51.55.295149 +0530,
54,0.5,1.0,53.6647572000511,,53.64935349998996,53.6647572000511,54.165161499986425,54.165161499986425,54.165161499986425,54.4648544001393,54.78264140011743,right,1.0,1,1,0.607433500001207,Ashish,001,2024-09-11_22h51.35.404,Adaptive Staircase Procedure,2024.2.1post4,59.66426908803034,2024-09-11 22h51.55.295149 +0530,
55,0.5,1.0,54.79836870008148,,54.78282309998758,54.79836870008148,55.29821759997867,55.29821759997867,55.29821759997867,55.59802970010787,55.815772200003266,right,1.0,1,1,0.508598200045526,Ashish,001,2024-09-11_22h51.35.404,Adaptive Staircase Procedure,2024.2.1post4,59.66426908803034,2024-09-11 22h51.55.295149 +0530,
56,0.5,1.0,55.83180529996753,,55.816006700042635,55.83180529996753,56.314862000057474,56.314862000057474,56.314862000057474,56.6152890000958,56.88277140003629,left,-1.0,1,1,0.5502753001637757,Ashish,001,2024-09-11_22h51.35.404,Adaptive Staircase Procedure,2024.2.1post4,59.66426908803034,2024-09-11 22h51.55.295149 +0530,
57,0.5,1.0,56.89885780005716,,56.88297039992176,56.89885780005716,57.39785149996169,57.39785149996169,57.39785149996169,57.69838270009495,57.81594260013662,left,-1.0,1,1,0.4091938000638038,Ashish,001,2024-09-11_22h51.35.404,Adaptive Staircase Procedure,2024.2.1post4,59.66426908803034,2024-09-11 22h51.55.295149 +0530,
58,0.5,1.0,57.83144599990919,,57.81612979993224,57.83144599990919,58.33146609994583,58.33146609994583,58.33146609994583,58.63189680012874,58.6992246999871,left,-1.0,1,1,0.3587698999326676,Ashish,001,2024-09-11_22h51.35.404,Adaptive Staircase Procedure,2024.2.1post4,59.66426908803034,2024-09-11 22h51.55.295149 +0530,
59,0.5,1.0,58.71510750008747,,58.69940789998509,58.71510750008747,59.21499380003661,59.21499380003661,59.21499380003661,59.514569600112736,59.649127800017595,left,-1.0,1,1,0.42251150007359684,Ashish,001,2024-09-11_22h51.35.404,Adaptive Staircase Procedure,2024.2.1post4,59.66426908803034,2024-09-11 22h51.55.295149 +0530,
60,0.5,1.0,59.66512080002576,,59.64935810002498,59.66512080002576,60.1480259001255,60.1480259001255,60.1480259001255,60.44819790008478,60.54966529994272,left,-1.0,1,1,0.3885507001541555,Ashish,001,2024-09-11_22h51.35.404,Adaptive Staircase Procedure,2024.2.1post4,59.66426908803034,2024-09-11 22h51.55.295149 +0530,
61,0.5,1.0,60.564769400050864,,60.54984500003047,60.564769400050864,61.06514069996774,61.06514069996774,61.06514069996774,61.365209300071,61.582721600076184,right,1.0,0,0,0.5086978001054376,Ashish,001,2024-09-11_22h51.35.404,Adaptive Staircase Procedure,2024.2.1post4,59.66426908803034,2024-09-11 22h51.55.295149 +0530,
62,0.5,1.5,61.598379499977455,,61.58290529996157,61.598379499977455,62.0813428000547,62.0813428000547,62.0813428000547,62.38141970010474,62.74888369999826,right,1.5,1,1,0.6613381998613477,Ashish,001,2024-09-11_22h51.35.404,Adaptive Staircase Procedure,2024.2.1post4,59.66426908803034,2024-09-11 22h51.55.295149 +0530,
63,0.5,1.5,62.764500400051475,,62.74906549998559,62.764500400051475,63.24815350002609,63.24815350002609,63.24815350002609,63.54859589994885,63.76565650012344,right,1.5,0,0,0.5123191999737173,Ashish,001,2024-09-11_22h51.35.404,Adaptive Staircase Procedure,2024.2.1post4,59.66426908803034,2024-09-11 22h51.55.295149 +0530,
64,0.5,2.0,63.7813693000935,,63.76584120001644,63.7813693000935,64.26444990001619,64.26444990001619,64.26444990001619,64.56496210000478,64.91583890002221,right,2.0,1,1,0.646227200049907,Ashish,001,2024-09-11_22h51.35.404,Adaptive Staircase Procedure,2024.2.1post4,59.66426908803034,2024-09-11 22h51.55.295149 +0530,
65,0.5,2.0,64.93168259994127,,64.91601820010692,64.93168259994127,65.41502119996585,65.41502119996585,65.41502119996585,65.71471219998784,66.03301670006476,right,2.0,1,1,0.6075832999777049,Ashish,001,2024-09-11_22h51.35.404,Adaptive Staircase Procedure,2024.2.1post4,59.66426908803034,2024-09-11 22h51.55.295149 +0530,
66,0.5,2.0,66.0481547000818,,66.03319430002011,66.0481547000818,66.54841920011677,66.54841920011677,66.54841920011677,66.84782120003365,67.16530600003898,right,2.0,1,1,0.6112788999453187,Ashish,001,2024-09-11_22h51.35.404,Adaptive Staircase Procedure,2024.2.1post4,59.66426908803034,2024-09-11 22h51.55.295149 +0530,
67,0.5,1.5,67.18152300012298,,67.16553140012547,67.18152300012298,67.66504280013032,67.66504280013032,67.66504280013032,67.96507339994423,68.14871560013853,left,-1.5,1,1,0.47832450014539063,Ashish,001,2024-09-11_22h51.35.404,Adaptive Staircase Procedure,2024.2.1post4,59.66426908803034,2024-09-11 22h51.55.295149 +0530,
68,0.5,1.5,68.16562270000577,,68.14889209996909,68.16562270000577,68.64842680003494,68.64842680003494,68.64842680003494,68.94874810008332,69.03305259998888,right,1.5,0,0,0.37641509994864464,Ashish,001,2024-09-11_22h51.35.404,Adaptive Staircase Procedure,2024.2.1post4,59.66426908803034,2024-09-11 22h51.55.295149 +0530,
69,0.5,2.0,69.04807889997028,,69.03329039993696,69.04807889997028,69.5480442000553,69.5480442000553,69.5480442000553,69.84793379995972,70.04867130005732,right,2.0,1,1,0.4861057000234723,Ashish,001,2024-09-11_22h51.35.404,Adaptive Staircase Procedure,2024.2.1post4,59.66426908803034,2024-09-11 22h51.55.295149 +0530,
70,0.5,2.0,70.06478619994596,,70.04885099991225,70.06478619994596,70.5477632000111,70.5477632000111,70.5477632000111,70.84804349998012,71.13185380003415,right,2.0,1,1,0.5764331000391394,Ashish,001,2024-09-11_22h51.35.404,Adaptive Staircase Procedure,2024.2.1post4,59.66426908803034,2024-09-11 22h51.55.295149 +0530,
71,0.5,2.0,71.14789830008522,,71.13203570013866,71.14789830008522,71.63162350002676,71.63162350002676,71.63162350002676,71.93127000005916,72.06729579996318,right,2.0,1,1,0.42853119992651045,Ashish,001,2024-09-11_22h51.35.404,Adaptive Staircase Procedure,2024.2.1post4,59.66426908803034,2024-09-11 22h51.55.295149 +0530,
72,0.5,1.5,72.08142290008254,,72.0674779000692,72.08142290008254,72.58158920006827,72.58158920006827,72.58158920006827,72.88161009992473,73.13231589994393,left,-1.5,1,1,0.5370169000234455,Ashish,001,2024-09-11_22h51.35.404,Adaptive Staircase Procedure,2024.2.1post4,59.66426908803034,2024-09-11 22h51.55.295149 +0530,
73,0.5,1.5,73.14854139997624,,73.13249460002407,73.14854139997624,73.63116730004549,73.63116730004549,73.63116730004549,73.93177710007876,74.03267340012826,right,1.5,0,0,0.3907126998528838,Ashish,001,2024-09-11_22h51.35.404,Adaptive Staircase Procedure,2024.2.1post4,59.66426908803034,2024-09-11 22h51.55.295149 +0530,
74,0.5,2.0,74.04832600010559,,74.03285429999232,74.04832600010559,74.54788760002702,74.54788760002702,74.54788760002702,74.8483543000184,75.08245879993774,right,2.0,1,1,0.5265115001238883,Ashish,001,2024-09-11_22h51.35.404,Adaptive Staircase Procedure,2024.2.1post4,59.66426908803034,2024-09-11 22h51.55.295149 +0530,
75,0.5,2.0,75.09807790000923,,75.08263890002854,75.09807790000923,75.5812041000463,75.5812041000463,75.5812041000463,75.8814868000336,75.98248230013996,right,2.0,1,1,0.3909795999061316,Ashish,001,2024-09-11_22h51.35.404,Adaptive Staircase Procedure,2024.2.1post4,59.66426908803034,2024-09-11 22h51.55.295149 +0530,
76,0.5,2.0,75.99797010002658,,75.98267209995538,75.99797010002658,76.4821095999796,76.4821095999796,76.4821095999796,76.79819240001962,76.88203969993629,left,-2.0,0,0,0.3966806000098586,Ashish,001,2024-09-11_22h51.35.404,Adaptive Staircase Procedure,2024.2.1post4,59.66426908803034,2024-09-11 22h51.55.295149 +0530,
77,0.5,2.5,76.89780090004206,,76.88222589995712,76.89780090004206,77.39822910004295,77.39822910004295,77.39822910004295,77.69779130001552,78.44907470000908,left,-2.5,1,1,1.0495058000087738,Ashish,001,2024-09-11_22h51.35.404,Adaptive Staircase Procedure,2024.2.1post4,59.66426908803034,2024-09-11 22h51.55.295149 +0530,
78,0.5,2.5,78.46469700010493,,78.4492576001212,78.46469700010493,78.94826059998013,78.94826059998013,78.94826059998013,79.2483065999113,79.49918560008518,right,2.5,1,1,0.5384363001212478,Ashish,001,2024-09-11_22h51.35.404,Adaptive Staircase Procedure,2024.2.1post4,59.66426908803034,2024-09-11 22h51.55.295149 +0530,
79,0.5,2.5,79.51434689993039,,79.49936769995838,79.51434689993039,80.01445879996754,80.01445879996754,80.01445879996754,80.31456149998121,80.56547600007616,left,-2.5,1,1,0.5378735000267625,Ashish,001,2024-09-11_22h51.35.404,Adaptive Staircase Procedure,2024.2.1post4,59.66426908803034,2024-09-11 22h51.55.295149 +0530,
80,0.5,2.0,80.58142599998973,,80.56565889995545,80.58142599998973,81.06442430010065,81.06442430010065,81.06442430010065,81.36490730009973,81.9652756000869,right,2.0,1,1,0.89960280014202,Ashish,001,2024-09-11_22h51.35.404,Adaptive Staircase Procedure,2024.2.1post4,59.66426908803034,2024-09-11 22h51.55.295149 +0530,
81,0.5,2.0,81.9811941999942,,81.96545160003006,81.9811941999942,82.48138329992071,82.48138329992071,82.48138329992071,82.78113829996437,82.99901070003398,right,2.0,1,1,0.5079091000370681,Ashish,001,2024-09-11_22h51.35.404,Adaptive Staircase Procedure,2024.2.1post4,59.66426908803034,2024-09-11 22h51.55.295149 +0530,
82,0.5,2.0,83.01465569995344,,82.99919030000456,83.01465569995344,83.51441669999622,83.51441669999622,83.51441669999622,83.81439790013246,83.99920540000312,left,-2.0,1,1,0.48350220010615885,Ashish,001,2024-09-11_22h51.35.404,Adaptive Staircase Procedure,2024.2.1post4,59.66426908803034,2024-09-11 22h51.55.295149 +0530,
83,0.5,1.5,84.01461419998668,,83.9994242999237,84.01461419998668,84.51444629998878,84.51444629998878,84.51444629998878,84.81466030003503,84.94925509998575,right,1.5,1,1,0.42743430007249117,Ashish,001,2024-09-11_22h51.35.404,Adaptive Staircase Procedure,2024.2.1post4,59.66426908803034,2024-09-11 22h51.55.295149 +0530,
84,0.5,1.5,84.96405100007541,,84.94943320006132,84.96405100007541,85.46479550004005,85.46479550004005,85.46479550004005,85.76447400008328,85.99898659996688,right,1.5,1,1,0.5203490001149476,Ashish,001,2024-09-11_22h51.35.404,Adaptive Staircase Procedure,2024.2.1post4,59.66426908803034,2024-09-11 22h51.55.295149 +0530,
85,0.5,1.5,86.0149725000374,,85.99916550004855,86.0149725000374,86.51452960004099,86.51452960004099,86.51452960004099,86.81409600004554,86.94847519998439,right,1.5,0,0,0.4171887000557035,Ashish,001,2024-09-11_22h51.35.404,Adaptive Staircase Procedure,2024.2.1post4,59.66426908803034,2024-09-11 22h51.55.295149 +0530,
86,0.5,2.0,86.96472509996966,,86.9486589001026,86.96472509996966,87.44779230002314,87.44779230002314,87.44779230002314,87.74845189996995,87.9821981000714,left,-2.0,0,0,0.5295726000331342,Ashish,001,2024-09-11_22h51.35.404,Adaptive Staircase Procedure,2024.2.1post4,59.66426908803034,2024-09-11 22h51.55.295149 +0530,
87,0.5,2.5,87.99713020003401,,87.9823819999583,87.99713020003401,88.49741260008886,88.49741260008886,88.49741260008886,88.7979204999283,88.99926579999737,right,2.5,1,1,0.4859885999467224,Ashish,001,2024-09-11_22h51.35.404,Adaptive Staircase Procedure,2024.2.1post4,59.66426908803034,2024-09-11 22h51.55.295149 +0530,
88,0.5,2.5,89.0147782000713,,88.99949610000476,89.0147782000713,89.51451070001349,89.51451070001349,89.51451070001349,89.81498829997145,89.99904979998246,left,-2.5,1,1,0.47653259988874197,Ashish,001,2024-09-11_22h51.35.404,Adaptive Staircase Procedure,2024.2.1post4,59.66426908803034,2024-09-11 22h51.55.295149 +0530,
89,0.5,2.5,90.01419080002233,,89.99924360006116,90.01419080002233,90.4977945999708,90.4977945999708,90.4977945999708,90.79752529994585,91.21495299995877,right,2.5,0,0,0.7099448998924345,Ashish,001,2024-09-11_22h51.35.404,Adaptive Staircase Procedure,2024.2.1post4,59.66426908803034,2024-09-11 22h51.55.295149 +0530,
90,0.5,3.0,91.23099440010265,,91.21513470006175,91.23099440010265,91.71478929999284,91.71478929999284,91.71478929999284,92.01456680009142,92.19870760012418,right,3.0,1,1,0.4762297000270337,Ashish,001,2024-09-11_22h51.35.404,Adaptive Staircase Procedure,2024.2.1post4,59.66426908803034,2024-09-11 22h51.55.295149 +0530,
91,0.5,3.0,92.21428119996563,,92.19888720009476,92.21428119996563,92.71474820002913,92.71474820002913,92.71474820002913,93.01437849993818,93.21531280013733,right,3.0,1,1,0.4843307000119239,Ashish,001,2024-09-11_22h51.35.404,Adaptive Staircase Procedure,2024.2.1post4,59.66426908803034,2024-09-11 22h51.55.295149 +0530,
92,0.5,3.0,93.23106430005282,,93.21549570001662,93.23106430005282,93.7314663999714,93.7314663999714,93.7314663999714,94.03166540013626,94.3152336999774,left,-3.0,1,1,0.5776647001039237,Ashish,001,2024-09-11_22h51.35.404,Adaptive Staircase Procedure,2024.2.1post4,59.66426908803034,2024-09-11 22h51.55.295149 +0530,
93,0.5,2.5,94.33086650003679,,94.31542030000128,94.33086650003679,94.81506510009058,94.81506510009058,94.81506510009058,95.1144026000984,95.26556530012749,right,2.5,1,1,0.4344681000802666,Ashish,001,2024-09-11_22h51.35.404,Adaptive Staircase Procedure,2024.2.1post4,59.66426908803034,2024-09-11 22h51.55.295149 +0530,
94,0.5,2.5,95.28114220011048,,95.26574670011178,95.28114220011048,95.78139530005865,95.78139530005865,95.78139530005865,96.08101830002852,96.2824826000724,left,-2.5,1,1,0.4998839998152107,Ashish,001,2024-09-11_22h51.35.404,Adaptive Staircase Procedure,2024.2.1post4,59.66426908803034,2024-09-11 22h51.55.295149 +0530,
95,0.5,2.5,96.29763390007429,,96.28266960009933,96.29763390007429,96.79725540010259,96.79725540010259,96.79725540010259,97.09746209997684,97.3322336000856,right,2.5,1,1,0.5261031000409275,Ashish,001,2024-09-11_22h51.35.404,Adaptive Staircase Procedure,2024.2.1post4,59.66426908803034,2024-09-11 22h51.55.295149 +0530,
96,0.5,2.0,97.34738330007531,,97.33242899994366,97.34738330007531,97.84732310008258,97.84732310008258,97.84732310008258,98.14781180000864,98.33173600002192,left,-2.0,1,1,0.4704843000508845,Ashish,001,2024-09-11_22h51.35.404,Adaptive Staircase Procedure,2024.2.1post4,59.66426908803034,2024-09-11 22h51.55.295149 +0530,
97,0.5,2.0,98.34729310008697,,98.33199189999141,98.34729310008697,98.83043029997498,98.83043029997498,98.83043029997498,99.13103480008431,99.23171079996973,right,2.0,1,1,0.3898948000278324,Ashish,001,2024-09-11_22h51.35.404,Adaptive Staircase Procedure,2024.2.1post4,59.66426908803034,2024-09-11 22h51.55.295149 +0530,
98,0.5,2.0,99.2478598000016,,99.23188879992813,99.2478598000016,99.74733399995603,99.74733399995603,99.74733399995603,100.04787379992194,100.28155510011129,right,2.0,0,0,0.5288969001267105,Ashish,001,2024-09-11_22h51.35.404,Adaptive Staircase Procedure,2024.2.1post4,59.66426908803034,2024-09-11 22h51.55.295149 +0530,
99,0.5,2.5,100.29749720008112,,100.28178780013695,100.29749720008112,100.78095509996638,100.78095509996638,100.78095509996638,101.08075239998288,101.29837270011194,right,2.5,1,1,0.5097898999229074,Ashish,001,2024-09-11_22h51.35.404,Adaptive Staircase Procedure,2024.2.1post4,59.66426908803034,2024-09-11 22h51.55.295149 +0530,
